Time (s),Binding (nm)
30.2,-0.133245
30.4,-0.129563
30.6,-0.128769
30.8,-0.12846
31.0,-0.126729
31.2,-0.125149
31.4,-0.124156
31.6,-0.122909
31.8,-0.121075
32.0,-0.119781
32.2,-0.118946
32.4,-0.118995
32.6,-0.118505
32.8,-0.118594
33.0,-0.117748
33.2,-0.116453
33.4,-0.115678
33.6,-0.115267
33.8,-0.11498
34.0,-0.114382
34.2,-0.115071
34.4,-0.114703
34.6,-0.114659
34.8,-0.114526
35.0,-0.114691
35.2,-0.113926
35.4,-0.113579
35.6,-0.113202
35.8,-0.112698
36.0,-0.112527
36.2,-0.112747
36.4,-0.111684
36.6,-0.111181
36.8,-0.11046
37.0,-0.111301
37.2,-0.11169
37.4,-0.113124
37.6,-0.114484
37.8,-0.114234
38.0,-0.113408
38.2,-0.112442
38.4,-0.111382
38.6,-0.109591
38.8,-0.110143
39.0,-0.109898
39.2,-0.109786
39.4,-0.109991
39.6,-0.109958
39.8,-0.109913
40.0,-0.110468
40.2,-0.110806
40.4,-0.11038
40.6,-0.110744
40.8,-0.110335
41.0,-0.10947
41.2,-0.109659
41.4,-0.109748
41.6,-0.110104
41.8,-0.109596
42.0,-0.110543
42.2,-0.111119
42.4,-0.110516
42.6,-0.109763
42.8,-0.110929
43.0,-0.111004
43.2,-0.109297
43.4,-0.109985
43.6,-0.110084
43.8,-0.109374
44.0,-0.106982
44.2,-0.107629
44.4,-0.106875
44.6,-0.10651
44.8,-0.106199
45.0,-0.107023
45.2,-0.10644
45.4,-0.107089
45.6,-0.105813
45.8,-0.105853
46.0,-0.106158
46.2,-0.106412
46.4,-0.105579
46.6,-0.106865
46.8,-0.106079
47.0,-0.106758
47.2,-0.106011
47.4,-0.105886
47.6,-0.106146
47.8,-0.106893
48.0,-0.105208
48.2,-0.105658
48.4,-0.105657
48.6,-0.105061
48.8,-0.105399
49.0,-0.106039
49.2,-0.105692
49.4,-0.105299
49.6,-0.104878
49.8,-0.10378
50.0,-0.104383
50.2,-0.106123
50.4,-0.106251
50.6,-0.107176
50.8,-0.107816
51.0,-0.106981
51.2,-0.105144
51.4,-0.106126
51.6,-0.105449
51.8,-0.105848
52.0,-0.10562
52.2,-0.105866
52.4,-0.105205
52.6,-0.104528
52.8,-0.103708
53.0,-0.10483
53.2,-0.104694
53.4,-0.104886
53.6,-0.105853
53.8,-0.106133
54.0,-0.105561
54.2,-0.106378
54.4,-0.105999
54.6,-0.105092
54.8,-0.105174
55.0,-0.105228
55.2,-0.104385
55.4,-0.104914
55.6,-0.105733
55.8,-0.10574
56.0,-0.10569
56.2,-0.106145
56.4,-0.106089
56.6,-0.105897
56.8,-0.105815
57.0,-0.105718
57.2,-0.10507
57.4,-0.104994
57.6,-0.104472
57.8,-0.104551
58.0,-0.104305
58.2,-0.104864
58.4,-0.104104
58.6,-0.104225
58.8,-0.103319
59.0,-0.102907
59.2,-0.102739
59.4,-0.102968
59.6,-0.103451
59.8,-0.103224
60.0,-0.102604
60.2,-0.102435
60.4,-0.102834
60.6,-0.101347
60.8,-0.102474
61.0,-0.102868
61.2,-0.1031
61.4,-0.102993
61.6,-0.103849
61.8,-0.103563
62.0,-0.103933
62.2,-0.104361
62.4,-0.104257
62.6,-0.104037
62.8,-0.103174
63.0,-0.102928
63.2,-0.101895
63.4,-0.10199
63.6,-0.102438
63.8,-0.103035
64.0,-0.10297
64.2,-0.103114
64.4,-0.10287
64.6,-0.102355
64.8,-0.1026
65.0,-0.10226
65.2,-0.102895
65.4,-0.102133
65.6,-0.102998
65.8,-0.102178
66.0,-0.102843
66.2,-0.102221
66.4,-0.102851
66.6,-0.102238
66.8,-0.102336
67.0,-0.101841
67.2,-0.101294
67.4,-0.100842
67.6,-0.101102
67.8,-0.101338
68.0,-0.102208
68.2,-0.102849
68.4,-0.10349
68.6,-0.103113
68.8,-0.103325
69.0,-0.102534
69.2,-0.102259
69.4,-0.101379
69.6,-0.101832
69.8,-0.101402
70.0,-0.100958
70.2,-0.100225
70.4,-0.100289
70.6,-0.100287
70.8,-0.100614
71.0,-0.099663
71.2,-0.0999047
71.4,-0.100633
71.6,-0.100779
71.8,-0.10024
72.0,-0.101192
72.2,-0.101734
72.4,-0.101572
72.6,-0.101184
72.8,-0.101827
73.0,-0.102061
73.2,-0.101937
73.4,-0.10074
73.6,-0.100305
73.8,-0.0996769
74.0,-0.099135
74.2,-0.0989425
74.4,-0.100083
74.6,-0.101336
74.8,-0.100925
75.0,-0.102121
75.2,-0.10212
75.4,-0.101227
75.6,-0.100433
75.8,-0.101218
76.0,-0.100417
76.2,-0.100002
76.4,-0.102284
76.6,-0.101912
76.8,-0.101176
77.0,-0.101094
77.2,-0.100947
77.4,-0.0997688
77.6,-0.100856
77.8,-0.10177
78.0,-0.101632
78.2,-0.102535
78.4,-0.102807
78.6,-0.10231
78.8,-0.101547
79.0,-0.101614
79.2,-0.100561
79.4,-0.0997508
79.6,-0.0986198
79.8,-0.0980643
80.0,-0.0993454
80.2,-0.10037
80.4,-0.0994181
80.6,-0.10013
80.8,-0.10124
81.0,-0.0993231
81.2,-0.0984262
81.4,-0.0993026
81.6,-0.0987979
81.8,-0.098462
82.0,-0.0991616
82.2,-0.0997907
82.4,-0.100783
82.6,-0.100923
82.8,-0.102095
83.0,-0.101882
83.2,-0.101805
83.4,-0.100967
83.6,-0.100766
83.8,-0.0986179
84.0,-0.0997249
84.2,-0.0994917
84.4,-0.0987491
84.6,-0.0988186
84.8,-0.0989319
85.0,-0.0980327
85.2,-0.0978321
85.4,-0.0978056
85.6,-0.0981785
85.8,-0.0984362
86.0,-0.0993397
86.2,-0.0995874
86.4,-0.100242
86.6,-0.100098
86.8,-0.10058
87.0,-0.100244
87.2,-0.0995838
87.4,-0.0987895
87.6,-0.0992358
87.8,-0.0988053
88.0,-0.0976283
88.2,-0.0984029
88.4,-0.0985229
88.6,-0.0975548
88.8,-0.0972119
89.0,-0.0977625
89.2,-0.0971566
89.4,-0.0979625
89.6,-0.0989153
89.8,-0.0993829
90.0,-0.0992459
90.2,-0.0987978
90.4,-0.0978915
90.6,-0.0977242
90.8,-0.0975102
91.0,-0.0979702
91.2,-0.0986535
91.4,-0.098527
91.6,-0.0988357
91.8,-0.0993197
92.0,-0.0992943
92.2,-0.0998592
92.4,-0.100889
92.6,-0.0997668
92.8,-0.0994994
93.0,-0.0988933
93.2,-0.098069
93.4,-0.0966319
93.6,-0.0968114
93.8,-0.0970683
94.0,-0.0973991
94.2,-0.0971243
94.4,-0.0985032
94.6,-0.098112
94.8,-0.0984262
95.0,-0.0970383
95.2,-0.0971315
95.4,-0.096449
95.6,-0.0966855
95.8,-0.0963928
96.0,-0.0975312
96.2,-0.0972936
96.4,-0.0971451
96.6,-0.0967403
96.8,-0.0957869
97.0,-0.0959539
97.2,-0.0959996
97.4,-0.0958256
97.6,-0.0966229
97.8,-0.0970852
98.0,-0.0967318
98.2,-0.0974986
98.4,-0.0986693
98.6,-0.0984175
98.8,-0.0984865
99.0,-0.0978517
99.2,-0.0975126
99.4,-0.0962505
99.6,-0.0953075
99.8,-0.0954245
100.0,-0.0962038
100.2,-0.0951112
100.4,-0.095425
100.6,-0.0965288
100.8,-0.0966519
101.0,-0.0963637
101.2,-0.0975847
101.4,-0.0974735
101.6,-0.0975588
101.8,-0.0974496
102.0,-0.0980572
102.2,-0.0971299
102.4,-0.0973018
102.6,-0.0963043
102.8,-0.0961711
103.0,-0.0968846
103.2,-0.0976235
103.4,-0.098098
103.6,-0.0982644
103.8,-0.0974494
104.0,-0.0964284
104.2,-0.0960981
104.4,-0.0955303
104.6,-0.0965047
104.8,-0.0983314
105.0,-0.0980484
105.2,-0.097309
105.4,-0.0980673
105.6,-0.0977402
105.8,-0.0967864
106.0,-0.096586
106.2,-0.0974264
106.4,-0.0968573
106.6,-0.0964198
106.8,-0.0965795
107.0,-0.0962579
107.2,-0.0960101
107.4,-0.0965138
107.6,-0.0959398
107.8,-0.095205
108.0,-0.0959955
108.2,-0.0959164
108.4,-0.0949486
108.6,-0.095188
108.8,-0.0955466
109.0,-0.0957395
109.2,-0.0961848
109.4,-0.0965708
109.6,-0.0967693
109.8,-0.0963345
110.0,-0.0951303
110.2,-0.0958692
110.4,-0.0955023
110.6,-0.0954374
110.8,-0.0956631
111.0,-0.0969677
111.2,-0.0953753
111.4,-0.094924
111.6,-0.0950856
111.8,-0.0954023
112.0,-0.0943656
112.2,-0.0949886
112.4,-0.0967599
112.6,-0.0953389
112.8,-0.0950538
113.0,-0.0958147
113.2,-0.096177
113.4,-0.0957126
113.6,-0.0972133
113.8,-0.0974189
114.0,-0.0972194
114.2,-0.0960981
114.4,-0.0951809
114.6,-0.0937482
114.8,-0.093728
115.0,-0.0939357
115.2,-0.0940469
115.4,-0.0941734
115.6,-0.0957049
115.8,-0.0956631
116.0,-0.0957572
116.2,-0.0957382
116.4,-0.0955044
116.6,-0.0945237
116.8,-0.0942199
117.0,-0.0934501
117.2,-0.0940059
117.4,-0.0946039
117.6,-0.0950512
117.8,-0.0956576
118.0,-0.0965985
118.2,-0.096875
118.4,-0.0961142
118.6,-0.0968935
118.8,-0.0963416
119.0,-0.0958123
119.2,-0.0962761
119.4,-0.0963655
119.6,-0.0955495
119.8,-0.0957824
120.0,-0.0958039
120.2,-0.0947187
120.4,-0.0954844
120.6,-0.095361
120.8,-0.0952322
121.0,-0.0955433
121.2,-0.0957114
121.4,-0.0938357
121.6,-0.0946504
121.8,-0.0946661
122.0,-0.0942688
122.2,-0.0936682
122.4,-0.094287
122.6,-0.0932415
122.8,-0.0930613
123.0,-0.0925158
123.2,-0.0921583
123.4,-0.0940188
123.6,-0.0942174
123.8,-0.0931859
124.0,-0.0931838
124.2,-0.0933821
124.4,-0.0918989
124.6,-0.0915276
124.8,-0.0919692
125.0,-0.0925588
125.2,-0.0937751
125.4,-0.0936184
125.6,-0.0937672
125.8,-0.0941072
126.0,-0.0931647
126.2,-0.0919426
126.4,-0.0922157
126.6,-0.0923687
126.8,-0.0923697
127.0,-0.0927472
127.2,-0.0924232
127.4,-0.0925248
127.6,-0.0931203
127.8,-0.0929841
128.0,-0.0933517
128.2,-0.0939177
128.4,-0.0939246
128.6,-0.0933558
128.8,-0.0936897
129.0,-0.0935402
129.2,-0.093555
129.4,-0.09355
129.6,-0.0937876
129.8,-0.0934716
130.0,-0.0943541
130.2,-0.0945524
130.4,-0.094636
130.6,-0.0950769
130.8,-0.0951085
131.0,-0.0940124
131.2,-0.0930548
131.4,-0.0917686
131.6,-0.0915284
131.8,-0.0919782
132.0,-0.0924295
132.2,-0.0930318
132.4,-0.0947244
132.6,-0.0952041
132.8,-0.0954106
133.0,-0.0952272
133.2,-0.0955259
133.4,-0.0945331
133.6,-0.0933937
133.8,-0.0922417
134.0,-0.0924254
134.2,-0.0922642
134.4,-0.0915396
134.6,-0.0913938
134.8,-0.0919712
135.0,-0.0910291
135.2,-0.090802
135.4,-0.0916008
135.6,-0.0917154
135.8,-0.0913932
136.0,-0.0916436
136.2,-0.0917505
136.4,-0.091915
136.6,-0.0921832
136.8,-0.092334
137.0,-0.0920558
137.2,-0.0923581
137.4,-0.0923377
137.6,-0.0927197
137.8,-0.0934311
138.0,-0.0938538
138.2,-0.0936383
138.4,-0.0938039
138.6,-0.0934667
138.8,-0.0924775
139.0,-0.0928943
139.2,-0.092735
139.4,-0.0920343
139.6,-0.093063
139.8,-0.0930504
140.0,-0.0926083
140.2,-0.0926918
140.4,-0.0928047
140.6,-0.0921838
140.8,-0.0921304
141.0,-0.0919263
141.2,-0.0918234
141.4,-0.0909698
141.6,-0.0904505
141.8,-0.0908736
142.0,-0.0911891
142.2,-0.0913732
142.4,-0.092219
142.6,-0.091416
142.8,-0.0909247
143.0,-0.0911461
143.2,-0.0910323
143.4,-0.0907456
143.6,-0.0912996
143.8,-0.0918111
144.0,-0.0905339
144.2,-0.0910977
144.4,-0.0912712
144.6,-0.0923108
144.8,-0.0930867
145.0,-0.0937068
145.2,-0.0932483
145.4,-0.0936674
145.6,-0.0922461
145.8,-0.0915913
146.0,-0.0921393
146.2,-0.0925159
146.4,-0.0917278
146.6,-0.0925191
146.8,-0.0930748
147.0,-0.0917332
147.2,-0.0906768
147.4,-0.0913699
147.6,-0.0910957
147.8,-0.0904548
148.0,-0.0921366
148.2,-0.0943408
148.4,-0.0939248
148.6,-0.0937855
148.8,-0.094326
149.0,-0.0926662
149.2,-0.0915785
149.4,-0.0916087
149.6,-0.0921891
149.8,-0.0906158
150.2,-0.0894684
150.4,-0.0915208
150.6,-0.0972426
150.8,-0.095958
151.0,-0.0959487
151.2,-0.0969501
151.4,-0.0973251
151.6,-0.0963677
151.8,-0.0962797
152.0,-0.0962707
152.2,-0.0975966
152.4,-0.0978193
152.6,-0.0980531
152.8,-0.0982448
153.0,-0.0986544
153.2,-0.0977391
153.4,-0.0986938
153.6,-0.0987547
153.8,-0.0991202
154.0,-0.0993365
154.2,-0.0984424
154.4,-0.0977888
154.6,-0.0975745
154.8,-0.097943
155.0,-0.0984011
155.2,-0.0994741
155.4,-0.0993304
155.6,-0.0999558
155.8,-0.0995447
156.0,-0.0991476
156.2,-0.0996831
156.4,-0.0999606
156.6,-0.0997751
156.8,-0.0999216
157.0,-0.101012
157.2,-0.0995148
157.4,-0.10024
157.6,-0.100691
157.8,-0.101268
158.0,-0.100932
158.2,-0.102739
158.4,-0.101802
158.6,-0.101576
158.8,-0.101482
159.0,-0.101439
159.2,-0.101384
159.4,-0.102038
159.6,-0.102607
159.8,-0.102784
160.0,-0.102712
160.2,-0.102404
160.4,-0.102557
160.6,-0.101201
160.8,-0.10051
161.0,-0.10013
161.2,-0.0998751
161.4,-0.0989961
161.6,-0.100121
161.8,-0.0997464
162.0,-0.09998
162.2,-0.0983761
162.4,-0.0986011
162.6,-0.0976287
162.8,-0.0983451
163.0,-0.0982522
163.2,-0.100728
163.4,-0.100819
163.6,-0.101521
163.8,-0.10126
164.0,-0.100947
164.2,-0.100708
164.4,-0.100962
164.6,-0.101463
164.8,-0.101143
165.0,-0.100794
165.2,-0.100467
165.4,-0.100746
165.6,-0.100569
165.8,-0.101239
166.0,-0.102294
166.2,-0.102033
166.4,-0.101553
166.6,-0.102381
166.8,-0.1027
167.0,-0.101782
167.2,-0.102639
167.4,-0.102062
167.6,-0.100757
167.8,-0.100098
168.0,-0.101221
168.2,-0.0998878
168.4,-0.0995915
168.6,-0.10071
168.8,-0.100879
169.0,-0.100131
169.2,-0.101045
169.4,-0.102295
169.6,-0.101302
169.8,-0.101251
170.0,-0.101305
170.2,-0.10168
170.4,-0.101709
170.6,-0.101803
170.8,-0.102084
171.0,-0.103098
171.2,-0.102169
171.4,-0.102377
171.6,-0.102626
171.8,-0.102753
172.0,-0.101905
172.2,-0.102519
172.4,-0.101842
172.6,-0.101659
172.8,-0.10161
173.0,-0.102541
173.2,-0.101805
173.4,-0.101457
173.6,-0.101862
173.8,-0.102265
174.0,-0.10077
174.2,-0.10134
174.4,-0.102414
174.6,-0.102343
174.8,-0.101743
175.0,-0.102265
175.2,-0.102953
175.4,-0.103435
175.6,-0.103449
175.8,-0.102784
176.0,-0.103567
176.2,-0.103388
176.4,-0.103137
176.6,-0.103266
176.8,-0.103003
177.0,-0.101696
177.2,-0.101577
177.4,-0.100799
177.6,-0.100481
177.8,-0.100847
178.0,-0.102347
178.2,-0.101786
178.4,-0.102204
178.6,-0.101455
178.8,-0.100704
179.0,-0.0998462
179.2,-0.100117
179.4,-0.100063
179.6,-0.100987
179.8,-0.101521
180.0,-0.10118
180.2,-0.101141
180.4,-0.100311
180.6,-0.100511
180.8,-0.100787
181.0,-0.101693
181.2,-0.101937
181.4,-0.102532
181.6,-0.102432
181.8,-0.103431
182.0,-0.102837
182.2,-0.103535
182.4,-0.10373
182.6,-0.103192
182.8,-0.102932
183.0,-0.102468
183.2,-0.101233
183.4,-0.101307
183.6,-0.100744
183.8,-0.100862
184.0,-0.101301
184.2,-0.101613
184.4,-0.102585
184.6,-0.10314
184.8,-0.102666
185.0,-0.102944
185.2,-0.102982
185.4,-0.101895
185.6,-0.102131
185.8,-0.102656
186.0,-0.102978
186.2,-0.102333
186.4,-0.102343
186.6,-0.103076
186.8,-0.102813
187.0,-0.102554
187.2,-0.102629
187.4,-0.102883
187.6,-0.101987
187.8,-0.101978
188.0,-0.101442
188.2,-0.102313
188.4,-0.101599
188.6,-0.101791
188.8,-0.102059
189.0,-0.10227
189.2,-0.101598
189.4,-0.102151
189.6,-0.102332
189.8,-0.101201
190.0,-0.101273
190.2,-0.101604
190.4,-0.101207
190.6,-0.101076
190.8,-0.102105
191.0,-0.101446
191.2,-0.100934
191.4,-0.100532
191.6,-0.0994562
191.8,-0.099955
192.0,-0.101886
192.2,-0.102128
192.4,-0.102484
192.6,-0.103393
192.8,-0.10336
193.0,-0.101772
193.2,-0.101429
193.4,-0.101875
193.6,-0.10227
193.8,-0.101632
194.0,-0.101091
194.2,-0.101467
194.4,-0.102566
194.6,-0.102709
194.8,-0.102202
195.0,-0.10273
195.2,-0.103226
195.4,-0.10221
195.6,-0.101794
195.8,-0.102022
196.0,-0.102751
196.2,-0.101893
196.4,-0.101538
196.6,-0.101554
196.8,-0.102798
197.0,-0.102916
197.2,-0.103173
197.4,-0.103551
197.6,-0.10282
197.8,-0.101448
198.0,-0.100668
198.2,-0.100419
198.4,-0.100355
198.6,-0.101514
198.8,-0.102668
199.0,-0.103114
199.2,-0.103711
199.4,-0.103103
199.6,-0.101822
199.8,-0.100964
200.0,-0.100944
200.2,-0.10096
200.4,-0.101086
200.6,-0.101456
200.8,-0.101973
201.0,-0.102469
201.2,-0.102223
201.4,-0.102102
201.6,-0.102046
201.8,-0.101799
202.0,-0.100738
202.2,-0.101194
202.4,-0.101495
202.6,-0.101474
202.8,-0.101038
203.0,-0.102735
203.2,-0.101816
203.4,-0.102217
203.6,-0.102567
203.8,-0.102946
204.0,-0.101718
204.2,-0.101612
204.4,-0.10113
204.6,-0.101082
204.8,-0.101079
205.0,-0.100794
205.2,-0.102685
205.4,-0.103076
205.6,-0.103758
205.8,-0.103345
206.0,-0.103666
206.2,-0.103666
206.4,-0.103257
206.6,-0.101944
206.8,-0.102458
207.0,-0.102516
207.2,-0.101662
207.4,-0.101745
207.6,-0.102276
207.8,-0.102769
208.0,-0.102106
208.2,-0.101717
208.4,-0.101839
208.6,-0.102201
208.8,-0.101377
209.0,-0.101076
209.2,-0.101252
209.4,-0.101856
209.6,-0.10194
209.8,-0.101036
210.0,-0.102564
210.2,-0.102865
210.4,-0.103019
210.6,-0.103135
210.8,-0.104856
211.0,-0.103522
211.2,-0.102507
211.4,-0.101411
211.6,-0.101526
211.8,-0.100786
212.0,-0.100991
212.2,-0.101803
212.4,-0.101531
212.6,-0.100903
212.8,-0.101313
213.0,-0.10138
213.2,-0.10127
213.4,-0.102415
213.6,-0.102828
213.8,-0.102038
214.0,-0.102963
214.2,-0.10191
214.4,-0.101842
214.6,-0.102016
214.8,-0.103183
215.0,-0.102574
215.2,-0.103153
215.4,-0.102929
215.6,-0.101665
215.8,-0.10085
216.0,-0.100671
216.2,-0.100678
216.4,-0.10052
216.6,-0.101184
216.8,-0.101729
217.0,-0.101496
217.2,-0.102082
217.4,-0.102178
217.6,-0.102283
217.8,-0.102139
218.0,-0.102555
218.2,-0.101854
218.4,-0.102166
218.6,-0.102799
218.8,-0.102233
219.0,-0.101785
219.2,-0.103052
219.4,-0.101936
219.6,-0.101466
219.8,-0.10164
220.0,-0.101782
220.2,-0.101075
220.4,-0.100763
220.6,-0.100789
220.8,-0.100659
221.0,-0.102436
221.2,-0.102013
221.4,-0.102369
221.6,-0.101275
221.8,-0.101482
222.0,-0.099747
222.2,-0.100094
222.4,-0.101002
222.6,-0.101938
222.8,-0.102352
223.0,-0.102819
223.2,-0.102671
223.4,-0.102743
223.6,-0.103011
223.8,-0.10345
224.0,-0.10309
224.2,-0.102493
224.4,-0.102119
224.6,-0.101281
224.8,-0.100051
225.0,-0.0998468
225.2,-0.101095
225.4,-0.100624
225.6,-0.101158
225.8,-0.101778
226.0,-0.102344
226.2,-0.101815
226.4,-0.101305
226.6,-0.101681
226.8,-0.101634
227.0,-0.101538
227.2,-0.101772
227.4,-0.102428
227.6,-0.101667
227.8,-0.101271
228.0,-0.100974
228.2,-0.101127
228.4,-0.102375
228.6,-0.102334
228.8,-0.102324
229.0,-0.103174
229.2,-0.102838
229.4,-0.100964
229.6,-0.101054
229.8,-0.101143
230.0,-0.101161
230.2,-0.100752
230.4,-0.10054
230.6,-0.100204
230.8,-0.100176
231.0,-0.0992379
231.2,-0.0994105
231.4,-0.100978
231.6,-0.10143
231.8,-0.101698
232.0,-0.101855
232.2,-0.101532
232.4,-0.101155
232.6,-0.100818
232.8,-0.100639
233.0,-0.101224
233.2,-0.101766
233.4,-0.101087
233.6,-0.101821
233.8,-0.101922
234.0,-0.100956
234.2,-0.101397
234.4,-0.101929
234.6,-0.101954
234.8,-0.101503
235.0,-0.101656
235.2,-0.101448
235.4,-0.100507
235.6,-0.100312
235.8,-0.10044
236.0,-0.100962
236.2,-0.100905
236.4,-0.101627
236.6,-0.1016
236.8,-0.101524
237.0,-0.10102
237.2,-0.100511
237.4,-0.100805
237.6,-0.101085
237.8,-0.101318
238.0,-0.10119
238.2,-0.101996
238.4,-0.10177
238.6,-0.101355
238.8,-0.101446
239.0,-0.102163
239.2,-0.101608
239.4,-0.100556
239.6,-0.0998337
239.8,-0.100237
240.0,-0.0997021
240.2,-0.10045
240.4,-0.102061
240.6,-0.102585
240.8,-0.102195
241.0,-0.102525
241.2,-0.102338
241.4,-0.101522
241.6,-0.101776
241.8,-0.1018
242.0,-0.101327
242.2,-0.101439
242.4,-0.102129
242.6,-0.102799
242.8,-0.102803
243.0,-0.104021
243.2,-0.103726
243.4,-0.103203
243.6,-0.101898
243.8,-0.102188
244.0,-0.101122
244.2,-0.101283
244.4,-0.100871
244.6,-0.102288
244.8,-0.102337
245.0,-0.102571
245.2,-0.101201
245.4,-0.10166
245.6,-0.101369
245.8,-0.0999705
246.0,-0.100581
246.2,-0.101191
246.4,-0.101034
246.6,-0.101243
246.8,-0.101489
247.0,-0.101026
247.2,-0.101987
247.4,-0.102874
247.6,-0.103265
247.8,-0.104415
248.0,-0.104208
248.2,-0.104228
248.4,-0.103594
248.6,-0.103217
248.8,-0.102961
249.0,-0.103741
249.2,-0.103064
249.4,-0.103626
249.6,-0.103453
249.8,-0.10361
250.0,-0.102693
250.2,-0.102321
250.4,-0.101669
250.6,-0.101515
250.8,-0.100945
251.0,-0.10091
251.2,-0.101522
251.4,-0.102489
251.6,-0.102704
251.8,-0.102479
252.0,-0.102076
252.2,-0.101872
252.4,-0.101217
252.6,-0.101626
252.8,-0.102954
253.0,-0.103328
253.2,-0.10358
253.4,-0.103193
253.6,-0.102189
253.8,-0.102157
254.0,-0.102635
254.2,-0.1033
254.4,-0.10306
254.6,-0.102121
254.8,-0.101362
255.0,-0.101096
255.2,-0.100638
255.4,-0.100515
255.6,-0.1007
255.8,-0.100694
256.0,-0.101547
256.2,-0.100848
256.4,-0.101552
256.6,-0.102387
256.8,-0.101575
257.0,-0.101026
257.2,-0.100794
257.4,-0.100444
257.6,-0.100566
257.8,-0.10107
258.0,-0.101476
258.2,-0.102096
258.4,-0.101563
258.6,-0.100943
258.8,-0.101274
259.0,-0.100591
259.2,-0.0995349
259.4,-0.0989811
259.6,-0.0989029
259.8,-0.0992865
260.0,-0.0990249
260.2,-0.100455
260.4,-0.101766
260.6,-0.101817
260.8,-0.101587
261.0,-0.102459
261.2,-0.102328
261.4,-0.102057
261.6,-0.102418
261.8,-0.101595
262.0,-0.100852
262.2,-0.100327
262.4,-0.100372
262.6,-0.101049
262.8,-0.101544
263.0,-0.100984
263.2,-0.100712
263.4,-0.100762
263.6,-0.100567
263.8,-0.0997751
264.0,-0.100295
264.2,-0.100617
264.4,-0.100622
264.6,-0.0996665
264.8,-0.100483
265.0,-0.100502
265.2,-0.100617
265.4,-0.101221
265.6,-0.101857
265.8,-0.101996
266.0,-0.102093
266.2,-0.101459
266.4,-0.0993018
266.6,-0.0992895
266.8,-0.0982567
267.0,-0.0984322
267.2,-0.0991459
267.4,-0.100681
267.6,-0.100436
267.8,-0.101618
268.0,-0.101555
268.2,-0.102014
268.4,-0.101777
268.6,-0.10153
268.8,-0.101663
269.0,-0.101148
269.2,-0.100588
269.4,-0.101516
269.6,-0.1016
269.8,-0.101759
