Time (s),Binding (nm)
0.0,0.0
0.2,-0.006343
0.4,-0.006123
0.6,-0.006732
0.8,-0.006215
1.0,-0.006802
1.2,-0.005458
1.4,-0.005288
1.6,-0.004937
1.8,-0.006325
2.0,-0.005651
2.2,-0.006029
2.4,-0.005824
2.6,-0.005344
2.8,-0.004898
3.0,-0.005507
3.2,-0.00555
3.4,-0.004985
3.6,-0.005689
3.8,-0.005984
4.0,-0.005666
4.2,-0.005557
4.4,-0.006307
4.6,-0.0066
4.8,-0.005772
5.0,-0.006369
5.2,-0.006214
5.4,-0.005957
5.6,-0.004854
5.8,-0.005317
6.0,-0.005318
6.2,-0.005761
6.4,-0.005685
6.6,-0.007126
6.8,-0.00604
7.0,-0.005266
7.2,-0.004969
7.4,-0.004823
7.6,-0.003361
7.8,-0.00456
8.0,-0.004742
8.2,-0.004247
8.4,-0.003646
8.6,-0.004894
8.8,-0.003878
9.0,-0.003398
9.2,-0.004149
9.4,-0.005278
9.6,-0.005096
9.8,-0.006337
10.0,-0.00589
10.2,-0.004483
10.4,-0.005171
10.6,-0.004672
10.8,-0.004055
11.0,-0.005471
11.2,-0.006971
11.4,-0.005833
11.6,-0.005798
11.8,-0.005776
12.0,-0.005272
12.2,-0.004394
12.4,-0.004359
12.6,-0.003391
12.8,-0.003825
13.0,-0.004006
13.2,-0.004203
13.4,-0.004063
13.6,-0.005195
13.8,-0.005634
14.0,-0.006182
14.2,-0.006539
14.4,-0.006004
14.6,-0.006182
14.8,-0.005012
15.0,-0.003881
15.2,-0.003238
15.4,-0.004077
15.6,-0.003175
15.8,-0.003829
16.0,-0.004376
16.2,-0.004869
16.4,-0.005451
16.6,-0.005029
16.8,-0.004768
17.0,-0.004222
17.2,-0.004579
17.4,-0.003596
17.6,-0.003497
17.8,-0.003584
18.0,-0.002709
18.2,-0.00165
18.4,-0.002345
18.6,-0.00371
18.8,-0.003247
19.0,-0.004628
19.2,-0.005425
19.4,-0.005432
19.6,-0.005216
19.8,-0.004877
20.0,-0.005613
20.2,-0.005097
20.4,-0.004703
20.6,-0.005229
20.8,-0.006173
21.0,-0.005019
21.2,-0.004969
21.4,-0.004257
21.6,-0.003698
21.8,-0.003001
22.0,-0.003727
22.2,-0.004271
22.4,-0.004879
22.6,-0.003802
22.8,-0.00387
23.0,-0.003455
23.2,-0.003105
23.4,-0.003403
23.6,-0.004641
23.8,-0.004765
24.0,-0.005606
24.2,-0.005595
24.4,-0.005128
24.6,-0.004811
24.8,-0.004846
25.0,-0.004061
25.2,-0.004249
25.4,-0.005576
25.6,-0.004741
25.8,-0.005574
26.0,-0.004991
26.2,-0.005275
26.4,-0.003283
26.6,-0.004267
26.8,-0.002906
27.0,-0.003211
27.2,-0.00312
27.4,-0.004225
27.6,-0.005046
27.8,-0.006471
28.0,-0.007132
28.2,-0.006374
28.4,-0.005663
28.6,-0.004654
28.8,-0.004575
29.0,-0.004178
29.2,-0.005708
29.4,-0.006125
29.6,-0.005703
29.8,-0.004745
30.0,-0.005264
30.2,-0.004531
30.4,-0.004443
30.6,-0.004695
30.8,-0.005403
31.0,-0.005385
31.2,-0.004697
31.4,-0.004911
31.6,-0.004955
31.8,-0.004028
32.0,-0.003117
32.2,-0.004304
32.4,-0.003951
32.6,-0.004174
32.8,-0.005773
33.0,-0.006304
33.2,-0.0057
33.4,-0.005472
33.6,-0.006027
33.8,-0.005022
34.0,-0.005239
34.2,-0.006305
34.4,-0.006777
34.6,-0.006351
34.8,-0.006471
35.0,-0.00626
35.2,-0.0044
35.4,-0.0045
35.6,-0.004344
35.8,-0.00354
36.0,-0.003363
36.2,-0.00353
36.4,-0.003563
36.6,-0.0032
36.8,-0.003459
37.0,-0.002957
37.2,-0.003499
37.4,-0.002383
37.6,-0.003932
37.8,-0.004283
38.0,-0.004723
38.2,-0.004994
38.4,-0.005019
38.6,-0.003575
38.8,-0.003537
39.0,-0.003351
39.2,-0.003571
39.4,-0.004122
39.6,-0.004774
39.8,-0.005282
40.0,-0.005858
40.2,-0.005371
40.4,-0.005456
40.6,-0.004682
40.8,-0.00324
41.0,-0.003169
41.2,-0.002339
41.4,-0.002323
41.6,-0.003158
41.8,-0.00486
42.0,-0.004127
42.2,-0.005016
42.4,-0.004971
42.6,-0.004578
42.8,-0.003183
43.0,-0.003461
43.2,-0.003787
43.4,-0.004223
43.6,-0.003722
43.8,-0.004233
44.0,-0.003632
44.2,-0.003233
44.4,-0.003097
44.6,-0.003962
44.8,-0.003788
45.0,-0.004163
45.2,-0.003736
45.4,-0.003665
45.6,-0.003408
45.8,-0.003717
46.0,-0.003936
46.2,-0.003495
46.4,-0.003046
46.6,-0.002828
46.8,-0.002379
47.0,-0.002447
47.2,-0.004272
47.4,-0.004897
47.6,-0.00512
47.8,-0.005031
48.0,-0.004639
48.2,-0.003451
48.4,-0.003269
48.6,-0.002804
48.8,-0.003329
49.0,-0.003352
49.2,-0.003374
49.4,-0.002339
49.6,-0.002676
49.8,-0.00232
50.0,-0.00264
50.2,-0.002658
50.4,-0.003522
50.6,-0.004545
50.8,-0.004548
51.0,-0.004726
51.2,-0.005536
51.4,-0.006189
51.6,-0.005162
51.8,-0.004496
52.0,-0.004305
52.2,-0.003093
52.4,-0.001593
52.6,-0.001711
52.8,-0.002518
53.0,-0.002512
53.2,-0.002494
53.4,-0.002524
53.6,-0.001857
53.8,-0.002533
54.0,-0.001864
54.2,-0.002283
54.4,-0.003124
54.6,-0.003693
54.8,-0.003727
55.0,-0.00433
55.2,-0.004741
55.4,-0.004922
55.6,-0.003929
55.8,-0.002214
56.0,-0.001987
56.2,-0.001556
56.4,-0.00157
56.6,-0.002109
56.8,-0.002789
57.0,-0.003059
57.2,-0.00254
57.4,-0.002624
57.6,-0.002336
57.8,-0.002509
58.0,-0.002891
58.2,-0.003941
58.4,-0.003391
58.6,-0.003067
58.8,-0.003085
59.0,-0.002666
59.2,-0.001503
59.4,-0.001727
59.6,-0.002288
59.8,-0.002063
60.0,-0.002668
60.2,-0.00349
60.4,-0.004029
60.6,-0.004768
60.8,-0.004936
61.0,-0.004623
61.2,-0.004272
61.4,-0.003168
61.6,-0.003192
61.8,-0.003654
62.0,-0.003351
62.2,-0.003587
62.4,-0.002934
62.6,-0.00106
62.8,-0.001363
63.0,-0.001244
63.2,-0.001112
63.4,-0.002562
63.6,-0.004074
63.8,-0.003827
64.0,-0.00474
64.2,-0.004341
64.4,-0.004065
64.6,-0.004698
64.8,-0.00361
65.0,-0.002741
65.2,-0.002368
65.4,-0.002159
65.6,-0.001393
65.8,-0.001832
66.0,-0.001922
66.2,-0.002448
66.4,-0.002025
66.6,-0.002607
66.8,-0.002659
67.0,-0.002484
67.2,-0.002109
67.4,-0.002656
67.6,-0.002248
67.8,-0.001587
68.0,-0.002043
68.2,-0.002056
68.4,-0.001364
68.6,-0.001106
68.8,-0.001361
69.0,-0.001085
69.2,-0.001327
69.4,-0.001054
69.6,-0.000144
69.8,-0.000678
70.0,-0.001656
70.2,-0.001195
70.4,-0.00305
70.6,-0.002967
70.8,-0.00329
71.0,-0.002128
71.2,-0.002215
71.4,-0.000622
71.6,-0.00153
71.8,-0.001647
72.0,-0.001777
72.2,-0.002045
72.4,-0.002854
72.6,-0.002452
72.8,-0.002103
73.0,-0.00216
73.2,-0.002507
73.4,-0.001498
73.6,-0.002385
73.8,-0.002704
74.0,-0.002533
74.2,-0.002447
74.4,-0.002473
74.6,-0.002975
74.8,-0.002568
75.0,-0.002699
75.2,-0.002629
75.4,-0.0036
75.6,-0.002439
75.8,-0.00221
76.0,-0.001458
76.2,-0.001294
76.4,-0.000841
76.6,-0.000647
76.8,0.0009
77.0,0.000474
77.2,0.000298
77.4,-9.8e-05
77.6,-0.000705
77.8,-0.00207
78.0,-0.002539
78.2,-0.002238
78.4,-0.001632
78.6,-0.001875
78.8,-0.001871
79.0,-0.001843
79.2,-0.00227
79.4,-0.002453
79.6,-0.002114
79.8,-0.002227
80.0,-0.001781
80.2,-0.000961
80.4,-0.000405
80.6,0.000136
80.8,0.000532
81.0,-0.000313
81.2,-0.001122
81.4,-0.001712
81.6,-0.001238
81.8,-0.002122
82.0,-0.000715
82.2,-0.00037
82.4,0.00029
82.6,-0.000369
82.8,0.000501
83.0,-0.000721
83.2,-0.000129
83.4,-0.000587
83.6,-0.000729
83.8,-0.001174
84.0,-6e-05
84.2,-0.001057
84.4,-0.002002
84.6,-0.001473
84.8,-0.00097
85.0,-0.001265
85.2,-0.000468
85.4,0.000815
85.6,6.3e-05
85.8,3.9e-05
86.0,-0.000881
86.2,-0.00078
86.4,-0.00052
86.6,-0.000537
86.8,0.000572
87.0,0.001867
87.2,0.002732
87.4,0.002147
87.6,0.002515
87.8,0.001019
88.0,0.000449
88.2,-0.000138
88.4,-0.000505
88.6,-0.000271
88.8,-0.000346
89.0,-0.000911
89.2,-0.001286
89.4,-0.001149
89.6,-0.000946
89.8,-0.000758
90.0,-3.6e-05
90.2,-0.000482
90.4,0.000213
90.6,-0.000739
90.8,-0.000646
91.0,-0.000198
91.2,-0.000922
91.4,-0.001469
91.6,-0.001198
91.8,-0.001449
92.0,-0.002578
92.2,-0.002095
92.4,-0.00164
92.6,-0.001078
92.8,-0.000428
93.0,-4.6e-05
93.2,0.001293
93.4,0.000502
93.6,-7.5e-05
93.8,-0.000388
94.0,-0.000228
94.2,-0.001783
94.4,-0.00184
94.6,-0.000787
94.8,0.000258
95.0,0.000179
95.2,0.000769
95.4,0.000512
95.6,0.000952
95.8,-0.00166
96.0,-0.001727
96.2,-0.001057
96.4,-0.000582
96.6,-0.001134
96.8,-0.000163
97.0,-0.000275
97.2,-0.000615
97.4,-0.000464
97.6,-0.001058
97.8,-0.000588
98.0,-0.000406
98.2,-0.000256
98.4,-8.5e-05
98.6,0.000239
98.8,0.000371
99.0,-1.8e-05
99.2,7e-05
99.4,-0.000168
99.6,-0.000182
99.8,-0.000216
100.0,0.000406
100.2,0.000624
100.4,0.001596
100.6,0.000538
100.8,0.000644
101.0,0.00047
101.2,-0.000798
101.4,-0.002102
101.6,-0.00148
101.8,-0.001514
102.0,-0.001497
102.2,-0.00027
102.4,0.000319
102.6,-0.001006
102.8,-0.001154
103.0,-0.000722
103.2,-0.001298
103.4,-0.001183
103.6,0.000332
103.8,-0.000714
104.0,-0.00073
104.2,0.000103
104.4,0.001773
104.6,0.001755
104.8,0.002897
105.0,0.002512
105.2,0.002046
105.4,0.000556
105.6,5.5e-05
105.8,0.000808
106.0,0.000416
106.2,0.000517
106.4,0.000918
106.6,0.00174
106.8,-0.000284
107.0,0.00053
107.2,0.000293
107.4,-0.000928
107.6,-0.000705
107.8,0.000618
108.0,0.000445
108.2,2.4e-05
108.4,0.000975
108.6,0.000373
108.8,0.001396
109.0,0.001898
109.2,0.00287
109.4,0.002131
109.6,0.002153
109.8,0.001252
110.0,-5.3e-05
110.2,-0.000132
110.4,0.000192
110.6,0.000536
110.8,0.000842
111.0,0.001465
111.2,0.00071
111.4,0.000589
111.6,0.000373
111.8,-0.000835
112.0,0.000199
112.2,0.000139
112.4,0.000739
112.6,0.000436
112.8,0.001458
113.0,0.000578
113.2,0.001228
113.4,0.001757
113.6,0.002181
113.8,0.002187
114.0,0.002584
114.2,0.00229
114.4,0.001695
114.6,0.001868
114.8,0.001746
115.0,0.001046
115.2,0.001146
115.4,0.000872
115.6,0.001178
115.8,0.001517
116.0,0.001815
116.2,0.001918
116.4,0.002129
116.6,0.001619
116.8,0.001426
117.0,0.000886
117.2,0.000391
117.4,-0.000124
117.6,-1.4e-05
117.8,0.000746
118.0,0.001436
118.2,0.002096
118.4,0.002259
118.6,0.003288
118.8,0.002276
119.0,0.001616
119.2,0.002128
119.4,0.002202
119.6,0.001051
